File: XAS_database.txt
# XDI/1.0 Demeter/0.9.26
# Demeter.output_filetype: multicolumn magnitude of chi(R)
# Element.symbol: Co
# Element.edge: K
# Column.1: R Angstrom
# Column.2: Co-K_Co-foil_Si111_50ms_121117.txt
# Column.3: Cr-K_Cr-foil_Si111_50ms_120613.txt
# Column.4: Cu-K_Cu-foil_Si111_50ms_120613.txt
# Column.5: Fe-K_Fe-foil_Si111_50ms_120621.txt
# Column.6: Mo-K_Mo-foil_Si111_50ms_160716.txt
# Column.7: Nb-K_Nb-foil_Si111_50ms_161006.txt
# Column.8: Ni-K_Ni-foil_Si111_50ms_121117.txt
# Column.9: Rh-K_Rh-foil_Si111_50ms_150918.txt
# Column.10: Ti-K_Ti-foil_Si111_100ms_140616.txt
# Column.11: V-K_V-foil_Si111_100ms_180211.txt
# Column.12: Zn-K_Zn-foil_Si111_50ms_141117.txt
# Column.13: Zr-K_Zr-foil_Si111_50ms_170419.txt
#------------------------
#  "r  Co-K_Co-foil_Si111_50ms_121117.txt  Cr-K_Cr-foil_Si111_50ms_120613.txt  Cu-K_Cu-foil_Si111_50ms_120613.txt  Fe-K_Fe-foil_Si111_50ms_120621.txt  Mo-K_Mo-foil_Si111_50ms_160716.txt  Nb-K_Nb-foil_Si111_50ms_161006.txt  Ni-K_Ni-foil_Si111_50ms_121117.txt
  0.0000000       0.00172724   0.0171397   0.00216579   0.14878       0.0250381   0.0324926   0.0124141   0.0846245   0.00378754   0.0259884   0.0320393   0.0178875
  0.0613592   0.00879059   0.0159044   0.00943805   0.142582       0.0190253   0.0265333   0.0146064   0.0849976   0.00698716   0.0298319   0.0351491   0.0146475
  0.122718       0.00891179   0.0188592   0.00940388   0.126526       0.00984019   0.0212305   0.0164967   0.088763   0.0124443   0.0328391   0.0376995   0.0117122
  0.184078       0.000163372   0.0224341   0.000842296   0.108902       0.0218884   0.0298648   0.0137479   0.0897708   0.0154314   0.0307449   0.0334654   0.0163624
  0.245437       0.00959279   0.0182264   0.0130336   0.10317       0.0293597   0.0324276   0.0116763   0.0837702   0.016958   0.0312817   0.0309149   0.017832
  0.306796       0.0103296   0.0175314   0.0161438   0.11638       0.0225709   0.0245719   0.0176581   0.089025   0.0244744   0.0346818   0.0387237   0.01349
  0.368155       0.00021706   0.0246505   0.00727714   0.13888       0.0232624   0.0266108   0.0200354   0.101019       0.0318083   0.0342559   0.0416126   0.0139936
  0.429515       0.0123321   0.0217615   0.0146809   0.157089       0.0391685   0.0369399   0.0142039   0.0946452   0.0331635   0.0338535   0.0338751   0.0194914
  0.490874       0.014853   0.0167272   0.0249324   0.162631       0.0417095   0.0351863   0.0165234   0.0880887   0.0391918   0.0389234   0.0366986   0.0188201
  0.552233       0.00366847   0.0287251   0.0198177   0.153495       0.0325614   0.0269686   0.0258721   0.108622       0.0432224   0.0429302   0.0480072   0.0140938
  0.613592       0.0108808   0.0287038   0.0141565   0.136016       0.0404352   0.0361985   0.0230148   0.11567       0.0358329   0.0388446   0.043549   0.0183695
  0.674952       0.0138856   0.00978385   0.029476   0.128321       0.0612786   0.0467606   0.0274467   0.102748       0.0949351   0.0277079   0.048135   0.0239698
  0.736311       0.0407706   0.0400339   0.033237   0.1495       0.0916827   0.0469261   0.0620759   0.132417       0.192967       0.0467767   0.0896601   0.0205608
  0.79767       0.0981871   0.0685949   0.0305587   0.192244       0.135274       0.0591993   0.0898143   0.172027       0.262923       0.103266       0.120723       0.0147024
  0.859029       0.144075       0.0763384   0.05595   0.23433       0.168204       0.0874221   0.0836838   0.147103       0.258288       0.163137       0.110903       0.026021
  0.920388       0.137411       0.108971       0.0814586   0.257574       0.166098       0.10352       0.0346111   0.0605025   0.173948       0.198968       0.0597093   0.040493
  0.981748       0.0620203   0.187277       0.0779846   0.250084       0.13038       0.0933553   0.0524178   0.129406       0.0583638   0.198829       0.0166121   0.0475884
  1.04311       0.0671242   0.255548       0.0515539   0.207062       0.0823855   0.0641723   0.129875       0.252038       0.0685557   0.187634       0.0626886   0.0473062
  1.10447       0.174571       0.26923       0.0699379   0.135961       0.0364275   0.0372607   0.162903       0.325129       0.10675       0.211476       0.0713148   0.0460081
  1.16583       0.207639       0.224379       0.114555       0.0935541   0.0642473   0.0344133   0.124859       0.345489       0.111143       0.253441       0.0398238   0.0524532
  1.22718       0.144197       0.176667       0.126408       0.173884       0.139185       0.0618833   0.0434846   0.324832       0.124224       0.260931       0.0211227   0.0661611
  1.28854       0.0933685   0.205189       0.100482       0.288319       0.187363       0.103575       0.131608       0.291134       0.124064       0.222468       0.0566737   0.0789878
  1.3499       0.21504       0.271076       0.100238       0.379711       0.197624       0.135101       0.234979       0.303223       0.0811894   0.193838       0.0653439   0.0891223
  1.41126       0.318999       0.328071       0.162757       0.417721       0.220224       0.141939       0.282934       0.344969       0.0567838   0.241787       0.0517899   0.102387
  1.47262       0.381733       0.390695       0.21818       0.379772       0.273994       0.137302       0.310489       0.343209       0.120261       0.316044       0.0605683   0.116456
  1.53398       0.469251       0.480835       0.251536       0.257663       0.29834       0.150614       0.393729       0.346084       0.167978       0.365872       0.0899499   0.116527
  1.59534       0.612531       0.599037       0.311686       0.151879       0.282721       0.175013       0.533918       0.454182       0.182601       0.400202       0.106446       0.0949124
  1.6567       0.796434       0.748102       0.42938       0.407381       0.306029       0.183845       0.712587       0.564172       0.194491       0.456737       0.123979       0.073471
  1.71806        1.04711       0.944813       0.577585       0.825296       0.381208       0.179784       0.970394       0.584358       0.245927       0.557363       0.171127       0.0883376
  1.77942        1.40018        1.19502       0.753281        1.31288       0.434081       0.190425        1.33299       0.606061       0.326114       0.699738       0.2297       0.107179
  1.84078        1.84477        1.48435       0.997643        1.82893       0.477032       0.223384        1.76989       0.732462       0.404485       0.87832       0.285255       0.10075
  1.90214        2.37193        1.81133        1.33878        2.33308       0.591864       0.262298        2.27915       0.85466       0.494657        1.08805       0.373601       0.0967141
  1.9635        3.01152        2.20906        1.77123        2.78628       0.779373       0.304651        2.93127       0.894792       0.623366        1.32402       0.524288       0.135212
  2.02485        3.75652        2.69647        2.28231        3.15478       0.991432       0.36474        3.75348       0.966906       0.769631        1.58874       0.709771       0.178453
  2.08621        4.47643        3.20742        2.83672        3.41419        1.25359       0.458036        4.60003        1.30484       0.915765        1.88649       0.900481       0.192647
  2.14757        4.95084        3.60188        3.33772        3.55233        1.68705       0.598227        5.19954        2.09159        1.10767        2.19834        1.09704       0.18832
  2.20893        4.98686        3.74884        3.64424        3.57036        2.38866       0.803581        5.30923        3.29584        1.38245        2.46863        1.29184       0.204466
  2.27029        4.52329        3.6038        3.64429        3.48169        3.27018        1.08991        4.8443        4.61406        1.69353        2.62609        1.43229       0.250655
  2.33165        3.66717        3.23721        3.32093        3.30869        4.05964        1.44563        3.92298        5.57728        1.98305        2.62266        1.45283       0.303003
  2.39301        2.65085        2.80415        2.76232        3.07743        4.42596        1.81283        2.81597        5.77517        2.24579        2.46029        1.33398       0.355281
  2.45437        1.73106        2.45815        2.11388        2.81157        4.13805        2.097        1.8262        5.07132        2.47892        2.19101        1.12233       0.426327
  2.51573        1.0714        2.24018        1.50961        2.52712        3.19849        2.20354        1.14549        3.68518        2.61789        1.89128       0.893127       0.542828
  2.57709       0.666985        2.0556        1.02976        2.23021        1.92756        2.08323       0.751761        2.09686        2.57505        1.62405       0.687103       0.720724
  2.63845       0.410199        1.78502       0.699709        1.91914        1.23        1.76672       0.497547       0.861564        2.32551        1.40997       0.497866       0.953612
  2.69981       0.247868        1.38672       0.498873        1.58974        1.79712        1.37592       0.319694       0.497317        1.93509        1.22942       0.328545        1.21129
  2.76117       0.179217       0.920226       0.371947        1.24135        2.34986        1.09757       0.228825       0.483116        1.51107        1.05173       0.221496        1.44634
  2.82252       0.159604       0.530063       0.276223       0.880754        2.42459        1.03797       0.19658       0.255401        1.12628       0.862823       0.187146        1.60474
  2.88388       0.157445       0.384877       0.21564       0.523962        2.0835        1.07145       0.187261       0.0927588   0.793798       0.672959       0.162617        1.63963
  2.94524       0.175446       0.394035       0.21826       0.205642        1.52509        1.04218       0.203827       0.212131       0.515063       0.506963       0.130053        1.52815
  3.0066       0.234978       0.393306       0.274374       0.179794       0.950894       0.911484       0.277848       0.184482       0.319013       0.386039       0.111989        1.28636
  3.06796       0.349616       0.432621       0.339934       0.396645       0.501817       0.715343       0.414594       0.0976411   0.219071       0.317944       0.099828   0.97213
  3.12932       0.488879       0.517236       0.397215       0.565337       0.244784       0.509783       0.575012       0.163496       0.156369       0.303547       0.0777527   0.667986
  3.19068       0.618169       0.568173       0.467803       0.667446       0.171633       0.339621       0.721535       0.208764       0.092152   0.331634       0.0657074   0.441564
  3.25204       0.716898       0.575829       0.560953       0.712172       0.176982       0.226277       0.828615       0.190837       0.0657979   0.373301       0.0782934   0.298747
  3.3134       0.764898       0.606255       0.637499       0.72323       0.191283       0.167023       0.873067       0.300713       0.0778972   0.405872       0.0908915   0.200636
  3.37476       0.741814       0.693638       0.65879       0.7335       0.212431       0.145381       0.841173       0.534227       0.0749915   0.427995       0.0998469   0.149486
  3.43612       0.649871       0.803792       0.630336       0.771437       0.257382       0.150635       0.750333       0.724233       0.0589756   0.452794       0.118494       0.15225
  3.49748       0.52829       0.915737       0.585627       0.843494       0.31393       0.17479       0.653257       0.774223       0.0527296   0.492746       0.138049       0.144879
  3.55884       0.434838        1.03193       0.540214       0.931835       0.345994       0.200833       0.608075       0.669426       0.0845127   0.551175       0.135962       0.103776
  3.62019       0.403595        1.12762       0.488553        1.00851       0.331096       0.212738       0.640044       0.467714       0.13764       0.622882       0.115149       0.073709
  3.68155       0.433581        1.14596       0.442131        1.04777       0.265375       0.20676       0.744383       0.253051       0.183867       0.696243       0.120659       0.0836158
  3.74291       0.522453        1.04182       0.436723        1.03054       0.153361       0.19034       0.912449       0.0967527   0.214028       0.755674       0.154452       0.0739801
  3.80427       0.670806       0.817075       0.502384       0.944784       0.0956006   0.168462        1.13973       0.130354       0.237429       0.785372       0.160282       0.0420233
  3.86563       0.864601       0.53161       0.636583       0.785116       0.308557       0.133885        1.41079       0.227084       0.260826       0.772243       0.115503       0.0728132
  3.92699        1.06523       0.324312       0.806167       0.552451       0.598355       0.0832901    1.67621       0.295834       0.27392       0.708403       0.0399106   0.117423
  3.98835        1.21687       0.370404       0.972329       0.255506       0.887879       0.0807364    1.8608       0.358892       0.263861       0.596133       0.0409209   0.128766
  4.04971        1.27327       0.525991        1.11019       0.123874        1.09016       0.170427        1.9057       0.474828       0.231985       0.455874       0.0838871   0.114685
  4.11107        1.2246       0.695562        1.20309       0.506168        1.12568       0.272783        1.80577       0.691777       0.198836       0.33634       0.110488       0.106968
  4.17243        1.10453       0.923427        1.23031       0.915817       0.97011       0.353897        1.61299        1.00219       0.197623       0.307905       0.144106       0.115161
  4.23379       0.973996        1.23201        1.17896        1.31876       0.676554       0.395044        1.40607        1.32281       0.237869       0.374579       0.178675       0.120034
  4.29515       0.889619        1.58125        1.06912        1.6886       0.347305       0.387973        1.25208        1.52477       0.292948       0.481308       0.20284       0.1183
  4.35651       0.869368        1.90741       0.952264        2.00053       0.0732405   0.337766        1.18825        1.50371       0.33941       0.612887       0.222231       0.117919
  4.41786       0.885557        2.15397       0.87089        2.23325       0.147694       0.26279        1.21975        1.24379       0.376903       0.772808       0.236465       0.116342
  4.47922       0.896771        2.27949       0.827016        2.37107       0.293451       0.188058        1.31942       0.835805       0.426867       0.951566       0.233176       0.107508
  4.54058       0.878292        2.25758       0.806269        2.40548       0.394111       0.134378        1.44228       0.442701       0.500757        1.12611       0.21327       0.0947187
  4.60194       0.828394        2.07936       0.805954        2.33598       0.520069       0.113024        1.54544       0.237704       0.573696        1.27045       0.193376       0.0834428
  4.6633       0.75891        1.76125       0.825678        2.17012       0.75301       0.12708        1.59359       0.245624       0.612553        1.36226       0.177163       0.0724647
  4.72466       0.681696        1.35242       0.8541        1.92254        1.00745       0.168657        1.56034       0.407153       0.612478        1.38594       0.153968       0.0614827
  4.78602       0.600416       0.933594       0.870273        1.61339        1.11104       0.229618        1.43746       0.70332       0.595605        1.33528       0.128817       0.0577301
  4.84738       0.512051       0.602037       0.853914        1.26613       0.954042       0.304649        1.24467        1.00031       0.575173        1.21566       0.122798       0.0722497
  4.90874       0.41553       0.423517       0.801042       0.905172       0.559762       0.378708        1.02682        1.17078       0.538393        1.04382       0.149418       0.110034
  4.9701       0.320375       0.344092       0.72882       0.553576       0.147243       0.425731       0.835436        1.15419       0.478377       0.845117       0.203053       0.162624
  5.03146       0.24755       0.262313       0.655442       0.231182       0.410652       0.422723       0.701889       0.976457       0.417913       0.649541       0.256403       0.215573
  5.09282       0.213124       0.17199       0.579843       0.0500826   0.594838       0.36535       0.620209       0.733664       0.382197       0.486153       0.277135       0.257718
  5.15418       0.203955       0.151852       0.497293       0.273689       0.52472       0.275025       0.559685       0.529268       0.363681       0.371824       0.256224       0.283213
  5.21553       0.194101       0.229202       0.422577       0.441663       0.270185       0.195067       0.493017       0.381768       0.347984       0.297542       0.220421       0.28609
  5.27689       0.173058       0.35139       0.371577       0.553706       0.0526001   0.163426       0.410685       0.231489       0.341885       0.237815       0.202915       0.25791
  5.33825       0.144148       0.491266       0.3295       0.614989       0.285038       0.159324       0.320231       0.063714   0.347699       0.182595       0.192232       0.195676
  5.39961       0.114961       0.609826       0.272666       0.633549       0.397348       0.144598       0.237572       0.125208       0.347232       0.152457       0.164495       0.111189
  5.46097       0.0919745   0.666225       0.202517       0.618979       0.385552       0.119026       0.174922       0.250732       0.326282       0.171371       0.133495       0.0304285
  5.52233       0.0781049   0.64525       0.139658       0.581328       0.29997       0.10302       0.133608       0.339668       0.289005       0.221706       0.123136       0.0215789
  5.58369       0.0701525   0.569568       0.100603       0.530282       0.22015       0.102839       0.109227       0.4014       0.248753       0.279729       0.114771       0.0289549
  5.64505       0.0602925   0.48855       0.0840374   0.47466       0.234042       0.103948       0.102223       0.420636       0.214769       0.334087       0.0887023   0.0241244
  5.70641       0.0453031   0.43873       0.0744496   0.422059       0.320669       0.0987264   0.116276       0.373552       0.187894       0.375257       0.0665829   0.0607447
  5.76777       0.0377999   0.407587       0.0572689   0.378366       0.413288       0.0914896   0.142395       0.264182       0.165755       0.394045       0.0759819   0.092496
  5.82913       0.0502708   0.364518       0.0348121   0.346956       0.483912       0.0897058   0.160601       0.132727       0.148207       0.386327       0.0866388   0.109534
  5.89049       0.0619834   0.30915       0.0349445   0.327937       0.517275       0.0973939   0.156312       0.0551652   0.136729       0.356756       0.0781102   0.134641
  5.95185       0.0574333   0.27103       0.0523764   0.318459       0.497188       0.113282       0.134854       0.0759572   0.132231       0.318286       0.056143   0.175479
  6.0132       0.0345916   0.268501       0.0694557   0.314404       0.409153       0.132364       0.129979       0.0778383   0.134001       0.285581       0.0402666   0.20474
  6.07456       0.00315573   0.283477       0.090148   0.312319       0.252935       0.148274       0.161055       0.0699389   0.135899       0.263554       0.0469301   0.19874
  6.13592       0.0430458   0.297951       0.10843       0.310416       0.0830268   0.155159       0.192476       0.0819986   0.128528       0.244157       0.0548163   0.15609
  6.19728       0.0833981   0.311754       0.1163       0.308494       0.208476       0.148755       0.192258       0.0942865   0.110264       0.21968       0.0479993   0.0944933
  6.25864       0.116011       0.325005       0.11994       0.307197       0.378903       0.127102       0.159545       0.107956       0.0913067   0.195332       0.0372084   0.0384977
  6.32       0.135282       0.328757       0.12518       0.307094       0.471815       0.091706   0.143016       0.145082       0.0796662   0.184507       0.0474921   0.0115042
  6.38136       0.140849       0.31439       0.119973       0.308018       0.476644       0.0518459   0.2032       0.199385       0.0677314   0.188645       0.0595764   0.0161671
  6.44272       0.139277       0.283506       0.102854       0.308959       0.425379       0.0467913   0.293351       0.267716       0.0488215   0.194229       0.0524638   0.0168495
  6.50408       0.136452       0.249294       0.118257       0.308496       0.375198       0.0848579   0.358286       0.36717       0.0301064   0.192891       0.029527   0.0171225
  6.56544       0.130173       0.230586       0.17727       0.305417       0.360441       0.121011       0.373335       0.494801       0.0238199   0.188199       0.0224694   0.0172309
  6.6268       0.121008       0.23742       0.229894       0.299198       0.35608       0.142207       0.335296       0.614736       0.0260096   0.185347       0.0371287   0.0219787
  6.68816       0.126509       0.260937       0.249793       0.290175       0.321408       0.146376       0.256328       0.689106       0.027189   0.181561       0.039768   0.0316981
  6.74952       0.159174       0.285719       0.23963       0.279378       0.240318       0.137081       0.159045       0.70408       0.0236221   0.170675       0.0302386   0.04029
  6.81087       0.203936       0.304652       0.21327       0.268098       0.12045       0.121153       0.0988462   0.671231       0.0203352   0.152772       0.0182749   0.0468293
  6.87223       0.246879       0.321788       0.174309       0.25734       0.0370357   0.105474       0.163451       0.607842       0.0334653   0.136574       0.0149061   0.0510922
  6.93359       0.286339       0.343877       0.117407       0.247384       0.165145       0.0936232   0.271701       0.521195       0.0508938   0.132593       0.0229031   0.0484754
  6.99495       0.321131       0.366748       0.0615831   0.237729       0.277032       0.0848262   0.372342       0.420347       0.0581278   0.141328       0.0294189   0.0352286
  7.05631       0.342488       0.374212       0.0961587   0.227498       0.350583       0.0760623   0.448314       0.335768       0.0512019   0.154612       0.0257777   0.0159741
  7.11767       0.340028       0.351508       0.169523       0.216133       0.381369       0.0641277   0.490774       0.297009       0.0343122   0.167625       0.0205995   0.0170356
  7.17903       0.310995       0.296843       0.231086       0.204049       0.373205       0.0464285   0.497028       0.27961       0.0168727   0.181235       0.0373437   0.0290439
  7.24039       0.262269       0.223306       0.276852       0.192913       0.334308       0.0222189   0.469873       0.241191       0.00945347   0.195715       0.0546014   0.0314042
  7.30175       0.20577       0.153823       0.308137       0.185175       0.273423       0.00912367   0.417122       0.178685       0.00814875   0.207223       0.0555313   0.0282037
  7.36311       0.15275       0.112581       0.321863       0.182642       0.196602       0.0369885   0.351517       0.114316       0.0216407   0.211805       0.0431623   0.028357
  7.42447       0.110649       0.105336       0.314616       0.184767       0.110767       0.0597996   0.289255       0.0564135   0.0472176   0.209269       0.0440047   0.0309486
  7.48583       0.0817653   0.111639       0.290239       0.188243       0.080231   0.0722263   0.243531       0.0382921   0.0698508   0.200793       0.0627751   0.0333597
  7.54719       0.0632108   0.117599       0.260509       0.188318       0.176386       0.0731706   0.214132       0.114146       0.0777779   0.184903       0.0726843   0.041597
  7.60854       0.0513216   0.121537       0.236425       0.180514       0.287864       0.064997   0.188006       0.184335       0.0670028   0.15958       0.0648312   0.0555921
  7.6699       0.0463337   0.123643       0.218484       0.161728       0.371636       0.0519479   0.154139       0.218409       0.0479325   0.128692       0.0449124   0.0663531
  7.73126       0.0494674   0.122432       0.200851       0.130717       0.409261       0.0380632   0.112185       0.217449       0.0491615   0.104394       0.0243041   0.0674922
  7.79262       0.059307   0.116462       0.18311       0.0882577   0.39922       0.0261287   0.0705973   0.211913       0.0673974   0.0971161   0.0119225   0.0586755
  7.85398       0.0725738   0.108457       0.16892       0.037836   0.353926       0.019501   0.0456238   0.224241       0.0738815   0.0998825   0.0095681   0.0443099
  7.91534       0.0838033   0.108221       0.155244       0.0276973   0.289431       0.0239475   0.0521783   0.235022       0.0636668   0.0996574   0.012909   0.0308113
  7.9767       0.0871491   0.124044       0.135517       0.0838173   0.216076       0.0372782   0.0715794   0.219568       0.0597049   0.0926842   0.016378   0.0245081
  8.03806       0.0799811   0.149792       0.113924       0.139137       0.141227       0.0532804   0.0912067   0.178       0.0789751   0.0825502   0.017561   0.0283054
  8.09942       0.0639751   0.174106       0.104236       0.187377       0.0833693   0.0676174   0.113794       0.130037       0.0952323   0.0731941   0.0168777   0.0384081
  8.16078       0.0427546   0.192043       0.105856       0.225344       0.0717172   0.0771097   0.144739       0.0989491   0.0988466   0.0634558   0.013957   0.0500608
  8.22214       0.019744   0.205124       0.104622       0.251542       0.077252   0.0800104   0.183034       0.0921487   0.109669       0.0497646   0.0104799   0.0596549
  8.2835       0.0153066   0.21722       0.0995452   0.266231       0.0681762   0.0760596   0.220116       0.0966232   0.133024       0.036558   0.0146421   0.0646097
  8.34486       0.0377596   0.232065       0.101829       0.27128       0.0798019   0.0660161   0.245089       0.0987293   0.144646       0.0427415   0.0206416   0.0637571
  8.40621       0.0563042   0.25082       0.112556       0.269677       0.133813       0.0513212   0.250112       0.091344   0.1366       0.0654522   0.0204171   0.0575278
  8.46757       0.0645106   0.26802       0.12123       0.264685       0.190108       0.0344122   0.234136       0.0753818   0.130801       0.0883363   0.0172819   0.0477106
  8.52893       0.0617598   0.273219       0.122628       0.258799       0.223084       0.020309   0.20455       0.06182   0.13781       0.106287       0.0236243   0.0369315
  8.59029       0.0518529   0.259869       0.119723       0.25294       0.225727       0.0189404   0.175242       0.0640275   0.131892       0.118929       0.0326264   0.028447
  8.65165       0.0397374   0.23151       0.118201       0.246376       0.20356       0.0267984   0.157668       0.0805017   0.0996795   0.126393       0.0335648   0.0257154
  8.71301       0.0272246   0.197735       0.120994       0.237427       0.167776       0.0329417   0.148873       0.103218       0.0632195   0.129268       0.0298509   0.0283884
  8.77437       0.0127559   0.16371       0.125665       0.224496       0.129924       0.0348888   0.136059       0.125151       0.053693   0.129753       0.0388939   0.0317049
  8.83573       0.00460922   0.128692       0.127222       0.206894       0.103265       0.0336724   0.112169       0.137107       0.0460156   0.130716       0.0564509   0.0322568
  8.89709       0.0228618   0.0993603   0.123683       0.185301       0.103709       0.032018   0.08102   0.131712       0.0197374   0.133587       0.0642988   0.0297723
  8.95845       0.0391515   0.0944255   0.117723       0.16198       0.128869       0.0324358   0.0529546   0.108742       0.0125138   0.137423       0.0535247   0.0268612
  9.01981       0.0514149   0.111431       0.111887       0.140853       0.15998       0.0345218   0.0363995   0.0760548   0.0235093   0.139139       0.0264374   0.027869
  9.08117       0.0594924   0.128989       0.103753       0.127028       0.185187       0.0361227   0.0357018   0.0470081   0.0160076   0.135045       0.0163635   0.0340272
  9.14253       0.0643664   0.140864       0.0894458   0.124486       0.200214       0.037403   0.0557279   0.0357138   0.0304582   0.123763       0.0418189   0.04142
  9.20388       0.0667004   0.151307       0.0706451   0.132619       0.203154       0.0414884   0.0862385   0.0390189   0.0477749   0.107962       0.0514368   0.0456216
  9.26524       0.0664836   0.163003       0.0562349   0.146601       0.192223       0.0489189   0.111959       0.0428387   0.0461785   0.0926155   0.0397878   0.0444251
  9.3266       0.0641232   0.175243       0.0534227   0.161138       0.168032       0.054714   0.122816       0.0441642   0.0416306   0.0813633   0.0135024   0.0385077
  9.38796       0.0612039   0.186673       0.0571968   0.172489       0.137638       0.0532685   0.116853       0.0442595   0.0539538   0.0751535   0.0186387   0.030417
  9.44932       0.0597894   0.193949       0.0621987   0.178524       0.1151       0.0425111   0.0997355   0.0434469   0.0597058   0.073171   0.0394209   0.0219327
  9.51068       0.0610655   0.191201       0.0680308   0.178322       0.110644       0.0249058   0.0807149   0.0406823   0.0459191   0.0734407   0.045145   0.012722
  9.57204       0.064453   0.174081       0.0717879   0.171842       0.115797       0.00722785   0.0681147   0.0357746   0.0228552   0.0749553   0.0369779   0.00353144
  9.6334       0.0677236   0.143406       0.0690338   0.159649       0.114325       0.0113215   0.0675204   0.0320415   0.00993527   0.0793982   0.0236198   0.008304
  9.69476       0.0684624   0.104719       0.059988   0.142681       0.0958565   0.0175625   0.0786384   0.0342894   0.0083076   0.0883381   0.0184247   0.0139145
  9.75612       0.0658768   0.0652016   0.0509923   0.122029       0.0574178   0.0155113   0.0933386   0.0411633   0.0133568   0.100743       0.0207057   0.0148917
  9.81748       0.0609178   0.0309103   0.0502233   0.0987716   0.020019   0.00706777   0.102314       0.0485666   0.0194472   0.114416       0.0188431   0.0144805
  9.87884       0.0543188   0.00718954   0.0604955   0.0738781   0.0685223   0.00599575   0.101041       0.0561875   0.016997   0.126153       0.0137266   0.0175364
  9.9402       0.0453404   0.0145555   0.0772696   0.0482228   0.117215       0.018972   0.0919001   0.0656032   0.0231445   0.131267       0.0155965   0.0216764
  9.97088       0.0397175   0.0205106   0.0855369   0.0353829   0.13209       0.0254345   0.0868179   0.0708846   0.0317454   0.130099       0.0190357   0.0226725